{
  "resourceType": "Bundle",
  "id": "bundle-test-run-001",
  "type": "transaction",
  "timestamp": "2026-02-14T13:13:24Z",
  "entry": [
    {
      "fullUrl": "urn:uuid:patient-1",
      "resource": {
        "resourceType": "Patient",
        "id": "patient-1",
        "name": [
          {
            "use": "usual",
            "text": "Surgical Patient"
          }
        ],
        "active": true
      },
      "request": {
        "method": "POST",
        "url": "Patient"
      }
    },
    {
      "fullUrl": "urn:uuid:practitioner-1",
      "resource": {
        "resourceType": "Practitioner",
        "id": "practitioner-1",
        "name": [
          {
            "use": "usual",
            "text": "Attending Surgeon"
          }
        ],
        "qualification": [
          {
            "code": {
              "coding": [
                {
                  "system": "http://snomed.info/sct",
                  "code": "304292004",
                  "display": "Surgeon"
                }
              ]
            }
          }
        ]
      },
      "request": {
        "method": "POST",
        "url": "Practitioner"
      }
    },
    {
      "fullUrl": "urn:uuid:enc-test-run-001",
      "resource": {
        "resourceType": "Encounter",
        "id": "enc-test-run-001",
        "status": "finished",
        "class": {
          "system": "http://terminology.hl7.org/CodeSystem/v3-ActCode",
          "code": "IMP",
          "display": "inpatient encounter"
        },
        "subject": {
          "reference": "urn:uuid:patient-1"
        },
        "identifier": [
          {
            "system": "urn:surgical-pipeline",
            "value": "test-run-001"
          }
        ]
      },
      "request": {
        "method": "POST",
        "url": "Encounter"
      }
    },
    {
      "fullUrl": "urn:uuid:proc-test-run-001",
      "resource": {
        "resourceType": "Procedure",
        "id": "proc-test-run-001",
        "status": "completed",
        "code": {
          "coding": [
            {
              "system": "http://snomed.info/sct",
              "code": "45595009",
              "display": "Laparoscopic cholecystectomy"
            }
          ],
          "text": "Laparoscopic Cholecystectomy"
        },
        "subject": {
          "reference": "urn:uuid:patient-1"
        },
        "encounter": {
          "reference": "urn:uuid:enc-test-run-001"
        },
        "performer": [
          {
            "actor": {
              "reference": "urn:uuid:practitioner-1"
            }
          }
        ],
        "identifier": [
          {
            "system": "urn:surgical-pipeline:run",
            "value": "test-run-001"
          }
        ],
        "extension": [
          {
            "url": "urn:surgical-pipeline:compliance-score",
            "valueDecimal": 0.85
          },
          {
            "url": "urn:surgical-pipeline:steps-observed",
            "valueInteger": 19
          },
          {
            "url": "urn:surgical-pipeline:steps-expected",
            "valueInteger": 20
          }
        ]
      },
      "request": {
        "method": "POST",
        "url": "Procedure"
      }
    },
    {
      "fullUrl": "urn:uuid:issue-critical_view_of_safety-952bcc5f",
      "resource": {
        "resourceType": "DetectedIssue",
        "id": "issue-critical_view_of_safety-952bcc5f",
        "status": "final",
        "severity": "high",
        "code": {
          "coding": [
            {
              "system": "urn:surgical-pipeline:deviation-type",
              "code": "skipped-safety",
              "display": "Safety-critical step was skipped"
            }
          ],
          "text": "Critical View of Safety: Safety-critical step was skipped"
        },
        "patient": {
          "reference": "urn:uuid:patient-1"
        },
        "implicated": [
          {
            "reference": "urn:uuid:proc-test-run-001"
          }
        ],
        "detail": "Evidence analysis for: 'Critical View of Safety' (skipped_safety)\n  Citation landscape: 1181699 supporting, 251693 contrasting\n  Snippets analyzed by NLI model: 13\n\nEvidence this deviation is clinically significant:\n  - [NLI confidence: 100%] \"This delay in diagnosis can result in adverse outcomes due to unnecessary surgical dissection. The attempt to identify a non-existent gallbladder and obtain the critical view of safety may increase the risk of iatrogenic bile duct injury due to excessive manipulation [  ].\"\n    Source: Gallbladder Agenesis and a Large Common Bile Duct Stone: A Case Report and Liter (DOI: 10.7759/cureus.89777)\n  - [NLI confidence: 98%] \"Epigastric pain has been reported in one-third of patients . Since the successful primary cholecystectomy was performed in a patient with SIT in 1991, 85 cases have been reported in the literature . One of the foremost necessary steps is to place the trocars to get a critical vie\"\n    Source: Laparoscopic Cholecystectomy in Situs Inversus, a Novel Port Placement Technique (DOI: 10.32592/ircmj.2021.23.10.1168)\n  - [NLI confidence: 98%] \"Bile duct injury (BDI) is the most dreaded complication of cholecystectomy; the incidence ranges from 0.3% to 1.5% for the laparoscopic technique. Even with the introduction of the Critical View of Safety (CVS) concept by Strasberg, the incidence of bile duct injury remains aroun\"\n    Source: Imaging-Enhancing System (DOI: 10.1007/978-981-19-3755-2_8)",
        "extension": [
          {
            "url": "urn:surgical-pipeline:safety-critical",
            "valueBoolean": true
          },
          {
            "url": "urn:surgical-pipeline:surgical-phase",
            "valueString": "safety"
          }
        ],
        "evidence": [
          {
            "detail": [
              {
                "display": "[scite: 1181699 supporting, 251693 contrasting]"
              }
            ]
          },
          {
            "detail": [
              {
                "display": "The R4U Planes for the Zonal Demarcation for Safe Laparoscopic Cholecystectomy (DOI: 10.1007/s00268-020-05908-1)"
              }
            ]
          },
          {
            "detail": [
              {
                "display": "Imaging-Enhancing System (DOI: 10.1007/978-981-19-3755-2_8)"
              }
            ]
          },
          {
            "detail": [
              {
                "display": "Gallbladder Agenesis and a Large Common Bile Duct Stone: A Case Report and Liter (DOI: 10.7759/cureus.89777)"
              }
            ]
          },
          {
            "detail": [
              {
                "display": "Laparoscopic Cholecystectomy in Situs Inversus, a Novel Port Placement Technique (DOI: 10.32592/ircmj.2021.23.10.1168)"
              }
            ]
          }
        ]
      },
      "request": {
        "method": "POST",
        "url": "DetectedIssue"
      }
    },
    {
      "fullUrl": "urn:uuid:issue-clip_cystic_duct-db29a7fa",
      "resource": {
        "resourceType": "DetectedIssue",
        "id": "issue-clip_cystic_duct-db29a7fa",
        "status": "final",
        "severity": "high",
        "code": {
          "coding": [
            {
              "system": "urn:surgical-pipeline:deviation-type",
              "code": "out-of-order",
              "display": "Steps performed out of expected sequence"
            }
          ],
          "text": "Clip Cystic Duct: Steps performed out of expected sequence"
        },
        "patient": {
          "reference": "urn:uuid:patient-1"
        },
        "implicated": [
          {
            "reference": "urn:uuid:proc-test-run-001"
          }
        ],
        "detail": "Evidence analysis for: 'Clip Cystic Duct' (out_of_order)\n  Citation landscape: 1387562 supporting, 169176 contrasting\n  Snippets analyzed by NLI model: 11\n\nEvidence this deviation is clinically significant:\n  - [NLI confidence: 100%] \"One problem with laparoscopic cholecystectomy is the 0.6% to 2% incidence of postoperative cystic duct leakage: [1, This complication may be related to insufficient closure of the cystic duct after the standard closure with two metal clips. It may be speculated that necrosis of t\"\n    Source: Sealing of cystic duct with bipolar electrocoagulation (DOI: 10.1007/s004640090054)\n  - [NLI confidence: 98%] \"Before clipping, meticulous dissection and complete clearance of cystic duct and cystic artery from other tissues represent an essential step for a safe procedure. An intraoperative cholangiogram could be very helpful in case of obscure biliary and cystic duct anatomy especially \"\n    Source: Laparoscopic Cholecystectomy for Severe Acute Cholecystitis in a Patient with Si (DOI: 10.1155/2008/465272)\n  - [NLI confidence: 94%] \"Some patient factors, such as obesity, diabetes mellitus, and advanced age, may also increase the risk of clip migration.  675 After laparoscopic cholecystectomy, a clip is placed in the cystic duct to prevent bile leakage. However, in some cases, the clip can detach from the cys\"\n    Source: Migration of the Plastic Clips of the Cystic Ducts to the Bile Duct Post-Laparos (DOI: 10.37275/sjs.v7i2.108)\n\nEvidence this deviation may be acceptable:\n  - [NLI confidence: 56%] \"Gallstones can cause biliary colic pain, biliary obstruction, and pancreatitis. 5 Symptoms of migration of the cystic duct clip into the common bile duct can vary, depending on the degree of obstruction and the presence of complications. In some patients, clip migration may be\"\n    Source: Migration of the Plastic Clips of the Cystic Ducts to the Bile Duct Post-Laparos (DOI: 10.37275/sjs.v7i2.108)",
        "extension": [
          {
            "url": "urn:surgical-pipeline:safety-critical",
            "valueBoolean": true
          },
          {
            "url": "urn:surgical-pipeline:surgical-phase",
            "valueString": "division"
          }
        ],
        "evidence": [
          {
            "detail": [
              {
                "display": "[scite: 1387562 supporting, 169176 contrasting]"
              }
            ]
          },
          {
            "detail": [
              {
                "display": "Variant origin of a common trunk of the accessory hepatic artery and cystic arte (DOI: 10.13172/2052-0077-2-7-726)"
              }
            ]
          },
          {
            "detail": [
              {
                "display": "THE LEARNING CURVE OF FIRST ONE HUNDRED LAPAROSCOPIC CHOLECYSTECTOMY (DOI: 10.33762/bsurg.2010.55435)"
              }
            ]
          },
          {
            "detail": [
              {
                "display": "Sealing of cystic duct with bipolar electrocoagulation (DOI: 10.1007/s004640090054)"
              }
            ]
          },
          {
            "detail": [
              {
                "display": "THE BLOOD SUPPLY OF THE BILIARY DUCTAL SYSTEM AND ITS RELEVANCE TO VASCULOBILIAR (DOI: 10.1046/j.1440-1622.1999.01702.x)"
              }
            ]
          }
        ]
      },
      "request": {
        "method": "POST",
        "url": "DetectedIssue"
      }
    },
    {
      "fullUrl": "urn:uuid:issue-clip_cystic_artery-4a44363a",
      "resource": {
        "resourceType": "DetectedIssue",
        "id": "issue-clip_cystic_artery-4a44363a",
        "status": "final",
        "severity": "high",
        "code": {
          "coding": [
            {
              "system": "urn:surgical-pipeline:deviation-type",
              "code": "out-of-order",
              "display": "Steps performed out of expected sequence"
            }
          ],
          "text": "Clip Cystic Artery: Steps performed out of expected sequence"
        },
        "patient": {
          "reference": "urn:uuid:patient-1"
        },
        "implicated": [
          {
            "reference": "urn:uuid:proc-test-run-001"
          }
        ],
        "detail": "Evidence analysis for: 'Clip Cystic Artery' (out_of_order)\n  Citation landscape: 1387378 supporting, 169118 contrasting\n  Snippets analyzed by NLI model: 12\n\nEvidence this deviation is clinically significant:\n  - [NLI confidence: 100%] \"Exact information regarding the cystic artery and its variations ensures safe laparoscopic cholecystectomy.The deficient knowledge about gall bladder vasculature particularly variations of cystic artery can be dangerous and uncontrolled bleeding can occur during cholecystectomy. \"\n    Source: LAPAROSCOPIC DESCRIPTIONS OF COURSE, RELATION AND VARIATIONS OF CYSTIC ARTERY IN (DOI: 10.51642/ppmj.v24i2.231)\n  - [NLI confidence: 96%] \"The first reported case of cystic artery pseudo aneurysm complicating laparoscopic cholecystectomy was by Bergey .  Though the pathogenesis remains unclear, direct vascular injury, erosion due to clip encroachment and diathermy shorting on clips and associated infection are likel\"\n    Source: Post laparoscopic cholecystectomy gastro intestinal bleed (DOI: 10.59284/jgpeman182)\n  - [NLI confidence: 94%] \"omental adhesions around gallbladder due to inflammation of acute cholecystis  and the adhesions were removed from the gallbladder. After skeletonizing, cystic artery was clipped and divided and cystic duct also was inflamed and dilated.\"\n    Source: Single Fulcrum Laparoscopic Cholecystectomy in Situs Inversus Totalis (DOI: 10.7602/jmis.2015.18.3.89)\n\nEvidence this deviation may be acceptable:\n  - [NLI confidence: 60%] \"Some researchers suggest that if a double gallbladder is discovered unexpectedly during surgery, conversion to open surgery may be necessary. However, with advancements in laparoscopic techniques, laparoscopic cholecystectomy is considered safe and reliable, whether the double ga\"\n    Source: H-type double gallbladder malformation: a case report (DOI: 10.1093/jscr/rjaf838)",
        "extension": [
          {
            "url": "urn:surgical-pipeline:safety-critical",
            "valueBoolean": true
          },
          {
            "url": "urn:surgical-pipeline:surgical-phase",
            "valueString": "division"
          }
        ],
        "evidence": [
          {
            "detail": [
              {
                "display": "[scite: 1387378 supporting, 169118 contrasting]"
              }
            ]
          },
          {
            "detail": [
              {
                "display": "LAPAROSCOPIC DESCRIPTIONS OF COURSE, RELATION AND VARIATIONS OF CYSTIC ARTERY IN (DOI: 10.51642/ppmj.v24i2.231)"
              }
            ]
          },
          {
            "detail": [
              {
                "display": "H-type double gallbladder malformation: a case report (DOI: 10.1093/jscr/rjaf838)"
              }
            ]
          },
          {
            "detail": [
              {
                "display": "Post laparoscopic cholecystectomy gastro intestinal bleed (DOI: 10.59284/jgpeman182)"
              }
            ]
          },
          {
            "detail": [
              {
                "display": "Right hepatic artery forming caterpillar hump, perforating Calot's triangle into (DOI: 10.1002/jhbp.231)"
              }
            ]
          }
        ]
      },
      "request": {
        "method": "POST",
        "url": "DetectedIssue"
      }
    },
    {
      "fullUrl": "urn:uuid:comp-test-run-001",
      "resource": {
        "resourceType": "Composition",
        "id": "comp-test-run-001",
        "status": "final",
        "type": {
          "coding": [
            {
              "system": "http://loinc.org",
              "code": "11504-8",
              "display": "Surgical operation note"
            }
          ]
        },
        "subject": {
          "reference": "urn:uuid:patient-1"
        },
        "encounter": {
          "reference": "urn:uuid:enc-test-run-001"
        },
        "date": "2026-02-14T13:13:24Z",
        "author": [
          {
            "reference": "urn:uuid:practitioner-1"
          }
        ],
        "title": "Post-Operative Compliance Report \u2014 Laparoscopic Cholecystectomy",
        "section": [
          {
            "title": "Procedure Summary",
            "code": {
              "coding": [
                {
                  "system": "http://loinc.org",
                  "code": "8648-8",
                  "display": "Hospital course Narrative"
                }
              ]
            },
            "text": {
              "status": "generated",
              "div": "<div xmlns=\"http://www.w3.org/1999/xhtml\"><p><b>Procedure:</b> Laparoscopic Cholecystectomy</p><p><b>Compliance Score:</b> 85%</p><p><b>Steps observed:</b> 19 / 20</p><p><b>Deviations:</b> 3 confirmed, 0 mitigated, 0 review needed</p></div>"
            }
          },
          {
            "title": "Detected Deviations from Standard Operating Procedure",
            "code": {
              "coding": [
                {
                  "system": "http://loinc.org",
                  "code": "55112-7",
                  "display": "Document summary"
                }
              ]
            },
            "entry": [
              {
                "reference": "urn:uuid:issue-critical_view_of_safety-952bcc5f"
              },
              {
                "reference": "urn:uuid:issue-clip_cystic_duct-db29a7fa"
              },
              {
                "reference": "urn:uuid:issue-clip_cystic_artery-4a44363a"
              }
            ]
          },
          {
            "title": "Full Compliance Report",
            "code": {
              "coding": [
                {
                  "system": "http://loinc.org",
                  "code": "11504-8",
                  "display": "Surgical operation note"
                }
              ]
            },
            "text": {
              "status": "generated",
              "div": "<div xmlns=\"http://www.w3.org/1999/xhtml\"><pre>============================================================\nPOST-OPERATIVE COMPLIANCE REPORT\nProcedure: Laparoscopic Cholecystectomy\nRun ID: test-run-001\nGenerated: 2026-02-14 09:34 UTC\nCompliance Score: 85%\n============================================================\n\nSteps expected: 20\nSteps observed: 19\nDeviations found: 3\n  Confirmed: 3\n  Mitigated: 0\n  Needs review: 0\n\n------------------------------------------------------------\nCONFIRMED DEVIATIONS\n------------------------------------------------------------\n  [CONFIRMED] Critical View of Safety\n    Type: skipped_safety\n    Phase: safety\n    Safety-critical: True\n    Evidence: Evidence analysis for: 'Critical View of Safety' (skipped_safety)\n  Citation landscape: 1181699 supporting, 251693 contrasting\n  Snippets analyzed by NLI model: 13\n\nEvidence this deviation is clinically significant:\n  - [NLI confidence: 100%] \"This delay in diagnosis can result in adverse outcomes d...\n    Citations: [scite: 1181699 supporting, 251693 contrasting], The R4U Planes for the Zonal Demarcation for Safe Laparoscopic Cholecystectomy (DOI: 10.1007/s00268-020-05908-1), Imaging-Enhancing System (DOI: 10.1007/978-981-19-3755-2_8), Gallbladder Agenesis and a Large Common Bile Duct Stone: A Case Report and Liter (DOI: 10.7759/cureus.89777), Laparoscopic Cholecystectomy in Situs Inversus, a Novel Port Placement Technique (DOI: 10.32592/ircmj.2021.23.10.1168)\n\n  [CONFIRMED] Clip Cystic Duct\n    Type: out_of_order\n    Phase: division\n    Safety-critical: True\n    Evidence: Evidence analysis for: 'Clip Cystic Duct' (out_of_order)\n  Citation landscape: 1387562 supporting, 169176 contrasting\n  Snippets analyzed by NLI model: 11\n\nEvidence this deviation is clinically significant:\n  - [NLI confidence: 100%] \"One problem with laparoscopic cholecystectomy is the 0.6% to 2% i...\n    Citations: [scite: 1387562 supporting, 169176 contrasting], Variant origin of a common trunk of the accessory hepatic artery and cystic arte (DOI: 10.13172/2052-0077-2-7-726), THE LEARNING CURVE OF FIRST ONE HUNDRED LAPAROSCOPIC CHOLECYSTECTOMY (DOI: 10.33762/bsurg.2010.55435), Sealing of cystic duct with bipolar electrocoagulation (DOI: 10.1007/s004640090054), THE BLOOD SUPPLY OF THE BILIARY DUCTAL SYSTEM AND ITS RELEVANCE TO VASCULOBILIAR (DOI: 10.1046/j.1440-1622.1999.01702.x)\n\n  [CONFIRMED] Clip Cystic Artery\n    Type: out_of_order\n    Phase: division\n    Safety-critical: True\n    Evidence: Evidence analysis for: 'Clip Cystic Artery' (out_of_order)\n  Citation landscape: 1387378 supporting, 169118 contrasting\n  Snippets analyzed by NLI model: 12\n\nEvidence this deviation is clinically significant:\n  - [NLI confidence: 100%] \"Exact information regarding the cystic artery and its variation...\n    Citations: [scite: 1387378 supporting, 169118 contrasting], LAPAROSCOPIC DESCRIPTIONS OF COURSE, RELATION AND VARIATIONS OF CYSTIC ARTERY IN (DOI: 10.51642/ppmj.v24i2.231), H-type double gallbladder malformation: a case report (DOI: 10.1093/jscr/rjaf838), Post laparoscopic cholecystectomy gastro intestinal bleed (DOI: 10.59284/jgpeman182), Right hepatic artery forming caterpillar hump, perforating Calot's triangle into (DOI: 10.1002/jhbp.231)\n\n============================================================</pre></div>"
            }
          }
        ]
      },
      "request": {
        "method": "POST",
        "url": "Composition"
      }
    }
  ]
}